"rt","key_press","trial_type","trial_index","time_elapsed","internal_node_id","responses","url","stimulus","button_pressed","answer"
"4207","13","text","0","4209","0.0-0.0","","","","",""
"7618","","survey-text","1","12837","0.0-1.0","{""Q0"":""This is running PHP""}","","","",""
"","","call-function","2","12837","0.0-2.0","","","","",""
"2622","","html","3","15479","0.0-3.0","","real_consent.html","","",""
"1177","13","text","4","17657","0.0-4.0","","","","",""
"2007","13","text","5","20666","0.0-5.0","","","","",""
"814","13","text","6","22480","0.0-6.0","","","","",""
"1970","13","text","7","25453","0.0-7.0","","","","",""
"-1","-1","single-stim","8","26955","0.0-8.0","","","<p class='center-content'><br><br><br><br><br>+</p>","",""
"-1","-1","single-stim","9","28957","0.0-9.0","","","practiceimages/rabbit2.png","",""
"556","","button-response","10","30517","0.0-10.0","","","","0",""
"-1","-1","single-stim","11","32020","0.0-11.0","","","<p class='center-content'><br><br><br><br><br>+</p>","",""
"-1","-1","single-stim","12","34021","0.0-12.0","","","practiceimages/cat1.jpg","",""
"3695","","button-response","13","38718","0.0-13.0","","","","0",""
"-1","-1","single-stim","14","40221","0.0-14.0","","","<p class='center-content'><br><br><br><br><br>+</p>","",""
"-1","-1","single-stim","15","42224","0.0-15.0","","","practiceimages/bird2.jpg","",""
"443","","button-response","16","43670","0.0-16.0","","","","0",""
"-1","-1","single-stim","17","45172","0.0-17.0","","","<p class='center-content'><br><br><br><br><br>+</p>","",""
"-1","-1","single-stim","18","47173","0.0-18.0","","","practiceimages/rabbit1.jpg","",""
"485","","button-response","19","48661","0.0-19.0","","","","0",""
"-1","-1","single-stim","20","50163","0.0-20.0","","","<p class='center-content'><br><br><br><br><br>+</p>","",""
"-1","-1","single-stim","21","52165","0.0-21.0","","","practiceimages/bird1.jpg","",""
"1017","","button-response","22","54183","0.0-22.0","","","","0",""
"-1","-1","single-stim","23","55687","0.0-23.0","","","<p class='center-content'><br><br><br><br><br>+</p>","",""
"-1","-1","single-stim","24","57689","0.0-24.0","","","practiceimages/dog2.jpg","",""
"405","","button-response","25","59096","0.0-25.0","","","","0",""
"-1","-1","single-stim","26","60598","0.0-26.0","","","<p class='center-content'><br><br><br><br><br>+</p>","",""
"-1","-1","single-stim","27","62599","0.0-27.0","","","practiceimages/cat2.jpg","",""
"357","","button-response","28","63958","0.0-28.0","","","","0",""
"-1","-1","single-stim","29","65461","0.0-29.0","","","<p class='center-content'><br><br><br><br><br>+</p>","",""
"-1","-1","single-stim","30","67464","0.0-30.0","","","practiceimages/dog1.jpg","",""
"419","","button-response","31","68886","0.0-31.0","","","","0",""
"2212","13","text","32","72098","0.0-32.0","","","","",""
"-1","-1","single-stim","33","73600","0.0-33.0","","","<p class='center-content'><br><br><br><br><br>+</p>","",""
"-1","-1","single-stim","34","75602","0.0-34.0","","","Blobs/LowSimilarity/d02.gif","",""
"431","","button-response","35","77038","0.0-35.0","","","","0",""
"-1","-1","single-stim","36","78539","0.0-36.0","","","<p class='center-content'><br><br><br><br><br>+</p>","",""
"-1","-1","single-stim","37","80542","0.0-37.0","","","Blobs/LowSimilarity/a10.gif","",""
"170","","button-response","38","81714","0.0-38.0","","","","0",""
"-1","-1","single-stim","39","83216","0.0-39.0","","","<p class='center-content'><br><br><br><br><br>+</p>","",""
"-1","-1","single-stim","40","85219","0.0-40.0","","","Blobs/LowSimilarity/c08.gif","",""
"148","","button-response","41","86369","0.0-41.0","","","","0",""
"-1","-1","single-stim","42","87871","0.0-42.0","","","<p class='center-content'><br><br><br><br><br>+</p>","",""
"-1","-1","single-stim","43","89872","0.0-43.0","","","Blobs/LowSimilarity/b16.gif","",""
"54","","button-response","44","90927","0.0-44.0","","","","0",""
"-1","-1","single-stim","45","92428","0.0-45.0","","","<p class='center-content'><br><br><br><br><br>+</p>","",""
"-1","-1","single-stim","46","94430","0.0-46.0","","","Blobs/LowSimilarity/d14.gif","",""
"73","","button-response","47","95504","0.0-47.0","","","","0",""
"-1","-1","single-stim","48","97006","0.0-48.0","","","<p class='center-content'><br><br><br><br><br>+</p>","",""
"-1","-1","single-stim","49","99010","0.0-49.0","","","Blobs/LowSimilarity/a06.gif","",""
"266","","button-response","50","100277","0.0-50.0","","","","0",""
"-1","-1","single-stim","51","101779","0.0-51.0","","","<p class='center-content'><br><br><br><br><br>+</p>","",""
"-1","-1","single-stim","52","103781","0.0-52.0","","","Blobs/LowSimilarity/c04.gif","",""
"132","","button-response","53","104914","0.0-53.0","","","","0",""
"-1","-1","single-stim","54","106417","0.0-54.0","","","<p class='center-content'><br><br><br><br><br>+</p>","",""
"-1","-1","single-stim","55","108419","0.0-55.0","","","Blobs/LowSimilarity/b13.gif","",""
"140","","button-response","56","109562","0.0-56.0","","","","0",""
"-1","-1","single-stim","57","111063","0.0-57.0","","","<p class='center-content'><br><br><br><br><br>+</p>","",""
"-1","-1","single-stim","58","113065","0.0-58.0","","","Blobs/LowSimilarity/d12.gif","",""
"102","","button-response","59","114168","0.0-59.0","","","","0",""
"-1","-1","single-stim","60","115670","0.0-60.0","","","<p class='center-content'><br><br><br><br><br>+</p>","",""
"-1","-1","single-stim","61","117673","0.0-61.0","","","Blobs/LowSimilarity/a09.gif","",""
"151","","button-response","62","118824","0.0-62.0","","","","0",""
"-1","-1","single-stim","63","120325","0.0-63.0","","","<p class='center-content'><br><br><br><br><br>+</p>","",""
"-1","-1","single-stim","64","122327","0.0-64.0","","","Blobs/LowSimilarity/c09.gif","",""
"165","","button-response","65","123495","0.0-65.0","","","","0",""
"-1","-1","single-stim","66","124997","0.0-66.0","","","<p class='center-content'><br><br><br><br><br>+</p>","",""
"-1","-1","single-stim","67","126999","0.0-67.0","","","Blobs/LowSimilarity/b14.gif","",""
"20","","button-response","68","128021","0.0-68.0","","","","0",""
"-1","-1","single-stim","69","129524","0.0-69.0","","","<p class='center-content'><br><br><br><br><br>+</p>","",""
"-1","-1","single-stim","70","131526","0.0-70.0","","","Blobs/LowSimilarity/d16.gif","",""
"257","","button-response","71","132784","0.0-71.0","","","","0",""
"-1","-1","single-stim","72","134287","0.0-72.0","","","<p class='center-content'><br><br><br><br><br>+</p>","",""
"-1","-1","single-stim","73","136290","0.0-73.0","","","Blobs/LowSimilarity/a05.gif","",""
"50","","button-response","74","137341","0.0-74.0","","","","0",""
"-1","-1","single-stim","75","138843","0.0-75.0","","","<p class='center-content'><br><br><br><br><br>+</p>","",""
"-1","-1","single-stim","76","140844","0.0-76.0","","","Blobs/LowSimilarity/c03.gif","",""
"174","","button-response","77","142019","0.0-77.0","","","","0",""
"-1","-1","single-stim","78","143524","0.0-78.0","","","<p class='center-content'><br><br><br><br><br>+</p>","",""
"-1","-1","single-stim","79","145525","0.0-79.0","","","Blobs/LowSimilarity/b06.gif","",""
"21","","button-response","80","146549","0.0-80.0","","","","0",""
"-1","-1","single-stim","81","148050","0.0-81.0","","","<p class='center-content'><br><br><br><br><br>+</p>","",""
"-1","-1","single-stim","82","150051","0.0-82.0","","","Blobs/LowSimilarity/d01.gif","",""
"53","","button-response","83","151106","0.0-83.0","","","","0",""
"-1","-1","single-stim","84","152609","0.0-84.0","","","<p class='center-content'><br><br><br><br><br>+</p>","",""
"-1","-1","single-stim","85","154611","0.0-85.0","","","Blobs/LowSimilarity/a11.gif","",""
"156","","button-response","86","155770","0.0-86.0","","","","0",""
"-1","-1","single-stim","87","157272","0.0-87.0","","","<p class='center-content'><br><br><br><br><br>+</p>","",""
"-1","-1","single-stim","88","159275","0.0-88.0","","","Blobs/LowSimilarity/c15.gif","",""
"27","","button-response","89","160303","0.0-89.0","","","","0",""
"-1","-1","single-stim","90","161805","0.0-90.0","","","<p class='center-content'><br><br><br><br><br>+</p>","",""
"-1","-1","single-stim","91","163807","0.0-91.0","","","Blobs/LowSimilarity/b01.gif","",""
"70","","button-response","92","164878","0.0-92.0","","","","0",""
"-1","-1","single-stim","93","166381","0.0-93.0","","","<p class='center-content'><br><br><br><br><br>+</p>","",""
"-1","-1","single-stim","94","168383","0.0-94.0","","","Blobs/LowSimilarity/d07.gif","",""
"230","","button-response","95","169614","0.0-95.0","","","","0",""
"-1","-1","single-stim","96","171117","0.0-96.0","","","<p class='center-content'><br><br><br><br><br>+</p>","",""
"-1","-1","single-stim","97","173121","0.0-97.0","","","Blobs/LowSimilarity/a02.gif","",""
"48","","button-response","98","174171","0.0-98.0","","","","0",""
"-1","-1","single-stim","99","175674","0.0-99.0","","","<p class='center-content'><br><br><br><br><br>+</p>","",""
"-1","-1","single-stim","100","177676","0.0-100.0","","","Blobs/LowSimilarity/c16.gif","",""
"206","","button-response","101","178884","0.0-101.0","","","","0",""
"-1","-1","single-stim","102","180386","0.0-102.0","","","<p class='center-content'><br><br><br><br><br>+</p>","",""
"-1","-1","single-stim","103","182388","0.0-103.0","","","Blobs/LowSimilarity/b08.gif","",""
"97","","button-response","104","183486","0.0-104.0","","","","0",""
"-1","-1","single-stim","105","184988","0.0-105.0","","","<p class='center-content'><br><br><br><br><br>+</p>","",""
"-1","-1","single-stim","106","186989","0.0-106.0","","","Blobs/LowSimilarity/d10.gif","",""
"149","","button-response","107","188141","0.0-107.0","","","","0",""
"-1","-1","single-stim","108","189643","0.0-108.0","","","<p class='center-content'><br><br><br><br><br>+</p>","",""
"-1","-1","single-stim","109","191645","0.0-109.0","","","Blobs/LowSimilarity/a16.gif","",""
"101","","button-response","110","192748","0.0-110.0","","","","0",""
"-1","-1","single-stim","111","194250","0.0-111.0","","","<p class='center-content'><br><br><br><br><br>+</p>","",""
"-1","-1","single-stim","112","196252","0.0-112.0","","","Blobs/LowSimilarity/c14.gif","",""
"192","","button-response","113","197446","0.0-113.0","","","","0",""
"-1","-1","single-stim","114","198947","0.0-114.0","","","<p class='center-content'><br><br><br><br><br>+</p>","",""
"-1","-1","single-stim","115","200949","0.0-115.0","","","Blobs/LowSimilarity/b03.gif","",""
"158","","button-response","116","202109","0.0-116.0","","","","0",""
"-1","-1","single-stim","117","203611","0.0-117.0","","","<p class='center-content'><br><br><br><br><br>+</p>","",""
"-1","-1","single-stim","118","205613","0.0-118.0","","","Blobs/LowSimilarity/d04.gif","",""
"12823","","button-response","119","219440","0.0-119.0","","","","0",""
"-1","-1","single-stim","120","220943","0.0-120.0","","","<p class='center-content'><br><br><br><br><br>+</p>","",""
"-1","-1","single-stim","121","222944","0.0-121.0","","","Blobs/LowSimilarity/a08.gif","",""
"41","","button-response","122","223987","0.0-122.0","","","","0",""
"-1","-1","single-stim","123","225488","0.0-123.0","","","<p class='center-content'><br><br><br><br><br>+</p>","",""
"-1","-1","single-stim","124","227490","0.0-124.0","","","Blobs/LowSimilarity/c05.gif","",""
"551","","button-response","125","229042","0.0-125.0","","","","0",""
"-1","-1","single-stim","126","230544","0.0-126.0","","","<p class='center-content'><br><br><br><br><br>+</p>","",""
"-1","-1","single-stim","127","232546","0.0-127.0","","","Blobs/LowSimilarity/b11.gif","",""
"171","","button-response","128","233720","0.0-128.0","","","","0",""
"-1","-1","single-stim","129","235222","0.0-129.0","","","<p class='center-content'><br><br><br><br><br>+</p>","",""
"-1","-1","single-stim","130","237225","0.0-130.0","","","Blobs/LowSimilarity/d02.gif","",""
"75","","button-response","131","238302","0.0-131.0","","","","0",""
"-1","-1","single-stim","132","239804","0.0-132.0","","","<p class='center-content'><br><br><br><br><br>+</p>","",""
"-1","-1","single-stim","133","241806","0.0-133.0","","","Blobs/LowSimilarity/a10.gif","",""
"291","","button-response","134","243098","0.0-134.0","","","","0",""
"-1","-1","single-stim","135","244599","0.0-135.0","","","<p class='center-content'><br><br><br><br><br>+</p>","",""
"-1","-1","single-stim","136","246601","0.0-136.0","","","Blobs/LowSimilarity/c08.gif","",""
"45","","button-response","137","247648","0.0-137.0","","","","0",""
"-1","-1","single-stim","138","249150","0.0-138.0","","","<p class='center-content'><br><br><br><br><br>+</p>","",""
"-1","-1","single-stim","139","251151","0.0-139.0","","","Blobs/LowSimilarity/b16.gif","",""
"72","","button-response","140","252225","0.0-140.0","","","","0",""
"-1","-1","single-stim","141","253728","0.0-141.0","","","<p class='center-content'><br><br><br><br><br>+</p>","",""
"-1","-1","single-stim","142","255730","0.0-142.0","","","Blobs/LowSimilarity/d14.gif","",""
"149","","button-response","143","256882","0.0-143.0","","","","0",""
"-1","-1","single-stim","144","258383","0.0-144.0","","","<p class='center-content'><br><br><br><br><br>+</p>","",""
"-1","-1","single-stim","145","260388","0.0-145.0","","","Blobs/LowSimilarity/a06.gif","",""
"49","","button-response","146","261439","0.0-146.0","","","","0",""
"-1","-1","single-stim","147","262941","0.0-147.0","","","<p class='center-content'><br><br><br><br><br>+</p>","",""
"-1","-1","single-stim","148","264942","0.0-148.0","","","Blobs/LowSimilarity/c04.gif","",""
"174","","button-response","149","266118","0.0-149.0","","","","0",""
"-1","-1","single-stim","150","267620","0.0-150.0","","","<p class='center-content'><br><br><br><br><br>+</p>","",""
"-1","-1","single-stim","151","269621","0.0-151.0","","","Blobs/LowSimilarity/b13.gif","",""
"160","","button-response","152","270782","0.0-152.0","","","","0",""
"-1","-1","single-stim","153","272283","0.0-153.0","","","<p class='center-content'><br><br><br><br><br>+</p>","",""
"-1","-1","single-stim","154","274287","0.0-154.0","","","Blobs/LowSimilarity/d12.gif","",""
"206","","button-response","155","275494","0.0-155.0","","","","0",""
"-1","-1","single-stim","156","276996","0.0-156.0","","","<p class='center-content'><br><br><br><br><br>+</p>","",""
"-1","-1","single-stim","157","278998","0.0-157.0","","","Blobs/LowSimilarity/a09.gif","",""
"59","","button-response","158","280059","0.0-158.0","","","","0",""
"-1","-1","single-stim","159","281561","0.0-159.0","","","<p class='center-content'><br><br><br><br><br>+</p>","",""
"-1","-1","single-stim","160","283563","0.0-160.0","","","Blobs/LowSimilarity/c09.gif","",""
"208","","button-response","161","284771","0.0-161.0","","","","0",""
"-1","-1","single-stim","162","286273","0.0-162.0","","","<p class='center-content'><br><br><br><br><br>+</p>","",""
"-1","-1","single-stim","163","288274","0.0-163.0","","","Blobs/LowSimilarity/b14.gif","",""
"13317","","button-response","164","302593","0.0-164.0","","","","0",""
"-1","-1","single-stim","165","304095","0.0-165.0","","","<p class='center-content'><br><br><br><br><br>+</p>","",""
"-1","-1","single-stim","166","306098","0.0-166.0","","","Blobs/LowSimilarity/d16.gif","",""
"77","","button-response","167","307176","0.0-167.0","","","","0",""
"-1","-1","single-stim","168","308677","0.0-168.0","","","<p class='center-content'><br><br><br><br><br>+</p>","",""
"-1","-1","single-stim","169","310680","0.0-169.0","","","Blobs/LowSimilarity/a05.gif","",""
"606","","button-response","170","312287","0.0-170.0","","","","0",""
"-1","-1","single-stim","171","313788","0.0-171.0","","","<p class='center-content'><br><br><br><br><br>+</p>","",""
"-1","-1","single-stim","172","315790","0.0-172.0","","","Blobs/LowSimilarity/c03.gif","",""
"68","","button-response","173","316859","0.0-173.0","","","","0",""
"-1","-1","single-stim","174","318361","0.0-174.0","","","<p class='center-content'><br><br><br><br><br>+</p>","",""
"-1","-1","single-stim","175","320362","0.0-175.0","","","Blobs/LowSimilarity/b06.gif","",""
"88","","button-response","176","321453","0.0-176.0","","","","0",""
"","","call-function","177","322461","0.0-177.0","","","","",""
"-1","-1","single-stim","178","322962","0.0-178.0","","","<p class='center-content'><br><br><br><br><br>+</p>","",""
"-1","-1","single-stim","179","324964","0.0-179.0","","","Blobs/LowSimilarity/d01.gif","",""
"75","","button-response","180","326040","0.0-180.0","","","","0",""
"-1","-1","single-stim","181","327543","0.0-181.0","","","<p class='center-content'><br><br><br><br><br>+</p>","",""
"-1","-1","single-stim","182","329545","0.0-182.0","","","Blobs/LowSimilarity/a11.gif","",""
"207","","button-response","183","330752","0.0-183.0","","","","0",""
"-1","-1","single-stim","184","332255","0.0-184.0","","","<p class='center-content'><br><br><br><br><br>+</p>","",""
"-1","-1","single-stim","185","334257","0.0-185.0","","","Blobs/LowSimilarity/c15.gif","",""
"113","","button-response","186","335374","0.0-186.0","","","","0",""
"-1","-1","single-stim","187","336877","0.0-187.0","","","<p class='center-content'><br><br><br><br><br>+</p>","",""
"-1","-1","single-stim","188","338879","0.0-188.0","","","Blobs/LowSimilarity/b01.gif","",""
"23","","button-response","189","339905","0.0-189.0","","","","0",""
"-1","-1","single-stim","190","341406","0.0-190.0","","","<p class='center-content'><br><br><br><br><br>+</p>","",""
"-1","-1","single-stim","191","343409","0.0-191.0","","","Blobs/LowSimilarity/d07.gif","",""
"110","","button-response","192","344520","0.0-192.0","","","","0",""
"-1","-1","single-stim","193","346022","0.0-193.0","","","<p class='center-content'><br><br><br><br><br>+</p>","",""
"-1","-1","single-stim","194","348025","0.0-194.0","","","Blobs/LowSimilarity/a02.gif","",""
"189","","button-response","195","349216","0.0-195.0","","","","0",""
"-1","-1","single-stim","196","350718","0.0-196.0","","","<p class='center-content'><br><br><br><br><br>+</p>","",""
"-1","-1","single-stim","197","352720","0.0-197.0","","","Blobs/LowSimilarity/c16.gif","",""
"30","","button-response","198","353751","0.0-198.0","","","","0",""
"-1","-1","single-stim","199","355253","0.0-199.0","","","<p class='center-content'><br><br><br><br><br>+</p>","",""
"-1","-1","single-stim","200","357254","0.0-200.0","","","Blobs/LowSimilarity/b08.gif","",""
"439","","button-response","201","358696","0.0-201.0","","","","0",""
"-1","-1","single-stim","202","360198","0.0-202.0","","","<p class='center-content'><br><br><br><br><br>+</p>","",""
"-1","-1","single-stim","203","362199","0.0-203.0","","","Blobs/LowSimilarity/d10.gif","",""
"191","","button-response","204","363392","0.0-204.0","","","","0",""
"-1","-1","single-stim","205","364894","0.0-205.0","","","<p class='center-content'><br><br><br><br><br>+</p>","",""
"-1","-1","single-stim","206","366897","0.0-206.0","","","Blobs/LowSimilarity/a16.gif","",""
"1215","","button-response","207","369114","0.0-207.0","","","","0",""
"-1","-1","single-stim","208","370618","0.0-208.0","","","<p class='center-content'><br><br><br><br><br>+</p>","",""
"-1","-1","single-stim","209","372621","0.0-209.0","","","Blobs/LowSimilarity/c14.gif","",""
"62","","button-response","210","373685","0.0-210.0","","","","0",""
"-1","-1","single-stim","211","375186","0.0-211.0","","","<p class='center-content'><br><br><br><br><br>+</p>","",""
"-1","-1","single-stim","212","377189","0.0-212.0","","","Blobs/LowSimilarity/b03.gif","",""
"76","","button-response","213","378268","0.0-213.0","","","","0",""
"-1","-1","single-stim","214","379770","0.0-214.0","","","<p class='center-content'><br><br><br><br><br>+</p>","",""
"-1","-1","single-stim","215","381772","0.0-215.0","","","Blobs/LowSimilarity/d04.gif","",""
"155","","button-response","216","382932","0.0-216.0","","","","0",""
"-1","-1","single-stim","217","384433","0.0-217.0","","","<p class='center-content'><br><br><br><br><br>+</p>","",""
"-1","-1","single-stim","218","386435","0.0-218.0","","","Blobs/LowSimilarity/a08.gif","",""
"185","","button-response","219","387623","0.0-219.0","","","","0",""
"-1","-1","single-stim","220","389125","0.0-220.0","","","<p class='center-content'><br><br><br><br><br>+</p>","",""
"-1","-1","single-stim","221","391126","0.0-221.0","","","Blobs/LowSimilarity/c05.gif","",""
"83","","button-response","222","392211","0.0-222.0","","","","0",""
"-1","-1","single-stim","223","393714","0.0-223.0","","","<p class='center-content'><br><br><br><br><br>+</p>","",""
"-1","-1","single-stim","224","395716","0.0-224.0","","","Blobs/LowSimilarity/b11.gif","",""
"154","","button-response","225","396873","0.0-225.0","","","","0",""
"-1","-1","single-stim","226","398376","0.0-226.0","","","<p class='center-content'><br><br><br><br><br>+</p>","",""
"-1","-1","single-stim","227","400377","0.0-227.0","","","Blobs/LowSimilarity/d02.gif","",""
"155","","button-response","228","401535","0.0-228.0","","","","0",""
"-1","-1","single-stim","229","403036","0.0-229.0","","","<p class='center-content'><br><br><br><br><br>+</p>","",""
"-1","-1","single-stim","230","405038","0.0-230.0","","","Blobs/LowSimilarity/a10.gif","",""
"176","","button-response","231","406216","0.0-231.0","","","","0",""
"-1","-1","single-stim","232","407718","0.0-232.0","","","<p class='center-content'><br><br><br><br><br>+</p>","",""
"-1","-1","single-stim","233","409720","0.0-233.0","","","Blobs/LowSimilarity/c08.gif","",""
"189","","button-response","234","410911","0.0-234.0","","","","0",""
"-1","-1","single-stim","235","412413","0.0-235.0","","","<p class='center-content'><br><br><br><br><br>+</p>","",""
"-1","-1","single-stim","236","414415","0.0-236.0","","","Blobs/LowSimilarity/b16.gif","",""
"129","","button-response","237","415546","0.0-237.0","","","","0",""
"-1","-1","single-stim","238","417048","0.0-238.0","","","<p class='center-content'><br><br><br><br><br>+</p>","",""
"-1","-1","single-stim","239","419051","0.0-239.0","","","Blobs/LowSimilarity/d14.gif","",""
"140","","button-response","240","420194","0.0-240.0","","","","0",""
"-1","-1","single-stim","241","421695","0.0-241.0","","","<p class='center-content'><br><br><br><br><br>+</p>","",""
"-1","-1","single-stim","242","423696","0.0-242.0","","","Blobs/LowSimilarity/a06.gif","",""
"434","","button-response","243","425132","0.0-243.0","","","","0",""
"-1","-1","single-stim","244","426636","0.0-244.0","","","<p class='center-content'><br><br><br><br><br>+</p>","",""
"-1","-1","single-stim","245","428638","0.0-245.0","","","Blobs/LowSimilarity/c04.gif","",""
"3674","","button-response","246","433313","0.0-246.0","","","","0",""
"-1","-1","single-stim","247","434815","0.0-247.0","","","<p class='center-content'><br><br><br><br><br>+</p>","",""
"-1","-1","single-stim","248","436816","0.0-248.0","","","Blobs/LowSimilarity/b13.gif","",""
"98","","button-response","249","437915","0.0-249.0","","","","0",""
"-1","-1","single-stim","250","439417","0.0-250.0","","","<p class='center-content'><br><br><br><br><br>+</p>","",""
"-1","-1","single-stim","251","441420","0.0-251.0","","","Blobs/LowSimilarity/d12.gif","",""
"516","","button-response","252","442939","0.0-252.0","","","","0",""
"-1","-1","single-stim","253","444442","0.0-253.0","","","<p class='center-content'><br><br><br><br><br>+</p>","",""
"-1","-1","single-stim","254","446444","0.0-254.0","","","Blobs/LowSimilarity/a09.gif","",""
"129","","button-response","255","447576","0.0-255.0","","","","0",""
"-1","-1","single-stim","256","449077","0.0-256.0","","","<p class='center-content'><br><br><br><br><br>+</p>","",""
"-1","-1","single-stim","257","451078","0.0-257.0","","","Blobs/LowSimilarity/c09.gif","",""
"208","","button-response","258","452289","0.0-258.0","","","","0",""
"-1","-1","single-stim","259","453790","0.0-259.0","","","<p class='center-content'><br><br><br><br><br>+</p>","",""
"-1","-1","single-stim","260","455792","0.0-260.0","","","Blobs/LowSimilarity/b14.gif","",""
"126","","button-response","261","456920","0.0-261.0","","","","0",""
"-1","-1","single-stim","262","458423","0.0-262.0","","","<p class='center-content'><br><br><br><br><br>+</p>","",""
"-1","-1","single-stim","263","460424","0.0-263.0","","","Blobs/LowSimilarity/d16.gif","",""
"58","","button-response","264","461484","0.0-264.0","","","","0",""
"-1","-1","single-stim","265","462986","0.0-265.0","","","<p class='center-content'><br><br><br><br><br>+</p>","",""
"-1","-1","single-stim","266","464988","0.0-266.0","","","Blobs/LowSimilarity/a05.gif","",""
"711","","button-response","267","466701","0.0-267.0","","","","0",""
"-1","-1","single-stim","268","468203","0.0-268.0","","","<p class='center-content'><br><br><br><br><br>+</p>","",""
"-1","-1","single-stim","269","470204","0.0-269.0","","","Blobs/LowSimilarity/c03.gif","",""
"236","","button-response","270","471441","0.0-270.0","","","","0",""
"-1","-1","single-stim","271","472944","0.0-271.0","","","<p class='center-content'><br><br><br><br><br>+</p>","",""
"-1","-1","single-stim","272","474947","0.0-272.0","","","Blobs/LowSimilarity/b06.gif","",""
"223","","button-response","273","476170","0.0-273.0","","","","0",""
"-1","-1","single-stim","274","477675","0.0-274.0","","","<p class='center-content'><br><br><br><br><br>+</p>","",""
"-1","-1","single-stim","275","479677","0.0-275.0","","","Blobs/LowSimilarity/d01.gif","",""
"110","","button-response","276","480788","0.0-276.0","","","","0",""
"-1","-1","single-stim","277","482290","0.0-277.0","","","<p class='center-content'><br><br><br><br><br>+</p>","",""
"-1","-1","single-stim","278","484292","0.0-278.0","","","Blobs/LowSimilarity/a11.gif","",""
"170","","button-response","279","485465","0.0-279.0","","","","0",""
"-1","-1","single-stim","280","486968","0.0-280.0","","","<p class='center-content'><br><br><br><br><br>+</p>","",""
"-1","-1","single-stim","281","488971","0.0-281.0","","","Blobs/LowSimilarity/c15.gif","",""
"181","","button-response","282","490153","0.0-282.0","","","","0",""
"-1","-1","single-stim","283","491656","0.0-283.0","","","<p class='center-content'><br><br><br><br><br>+</p>","",""
"-1","-1","single-stim","284","493658","0.0-284.0","","","Blobs/LowSimilarity/b01.gif","",""
"3864","","button-response","285","498524","0.0-285.0","","","","0",""
"-1","-1","single-stim","286","500026","0.0-286.0","","","<p class='center-content'><br><br><br><br><br>+</p>","",""
"-1","-1","single-stim","287","502028","0.0-287.0","","","Blobs/LowSimilarity/d07.gif","",""
"452","","button-response","288","503482","0.0-288.0","","","","0",""
"-1","-1","single-stim","289","504985","0.0-289.0","","","<p class='center-content'><br><br><br><br><br>+</p>","",""
"-1","-1","single-stim","290","506987","0.0-290.0","","","Blobs/LowSimilarity/a02.gif","",""
"173","","button-response","291","508162","0.0-291.0","","","","0",""
"-1","-1","single-stim","292","509664","0.0-292.0","","","<p class='center-content'><br><br><br><br><br>+</p>","",""
"-1","-1","single-stim","293","511665","0.0-293.0","","","Blobs/LowSimilarity/c16.gif","",""
"68","","button-response","294","512735","0.0-294.0","","","","0",""
"-1","-1","single-stim","295","514237","0.0-295.0","","","<p class='center-content'><br><br><br><br><br>+</p>","",""
"-1","-1","single-stim","296","516239","0.0-296.0","","","Blobs/LowSimilarity/b08.gif","",""
"181","","button-response","297","517422","0.0-297.0","","","","0",""
"-1","-1","single-stim","298","518925","0.0-298.0","","","<p class='center-content'><br><br><br><br><br>+</p>","",""
"-1","-1","single-stim","299","520928","0.0-299.0","","","Blobs/LowSimilarity/d10.gif","",""
"198","","button-response","300","522128","0.0-300.0","","","","0",""
"-1","-1","single-stim","301","523630","0.0-301.0","","","<p class='center-content'><br><br><br><br><br>+</p>","",""
"-1","-1","single-stim","302","525632","0.0-302.0","","","Blobs/LowSimilarity/a16.gif","",""
"199","","button-response","303","526833","0.0-303.0","","","","0",""
"-1","-1","single-stim","304","528335","0.0-304.0","","","<p class='center-content'><br><br><br><br><br>+</p>","",""
"-1","-1","single-stim","305","530337","0.0-305.0","","","Blobs/LowSimilarity/c14.gif","",""
"184","","button-response","306","531523","0.0-306.0","","","","0",""
"-1","-1","single-stim","307","533025","0.0-307.0","","","<p class='center-content'><br><br><br><br><br>+</p>","",""
"-1","-1","single-stim","308","535026","0.0-308.0","","","Blobs/LowSimilarity/b03.gif","",""
"1978","","button-response","309","538006","0.0-309.0","","","","0",""
"8557","","survey-multi-choice","310","547569","0.0-310.0","{""Q0"":""1. Memorize specific examples of the categories""}","","","",""
"-1","-1","single-stim","311","549072","0.0-311.0","","","<p class='center-content'><br><br><br><br><br>+</p>","",""
"-1","-1","single-stim","312","551074","0.0-312.0","","","Blobs/LowSimilarity/d04.gif","",""
"1191","","button-response","313","553268","0.0-313.0","","","","0",""
"-1","-1","single-stim","314","554769","0.0-314.0","","","<p class='center-content'><br><br><br><br><br>+</p>","",""
"-1","-1","single-stim","315","556771","0.0-315.0","","","Blobs/LowSimilarity/a08.gif","",""
"106","","button-response","316","557881","0.0-316.0","","","","0",""
"-1","-1","single-stim","317","559382","0.0-317.0","","","<p class='center-content'><br><br><br><br><br>+</p>","",""
"-1","-1","single-stim","318","561384","0.0-318.0","","","Blobs/LowSimilarity/c05.gif","",""
"20","","button-response","319","562407","0.0-319.0","","","","0",""
"-1","-1","single-stim","320","563910","0.0-320.0","","","<p class='center-content'><br><br><br><br><br>+</p>","",""
"-1","-1","single-stim","321","565912","0.0-321.0","","","Blobs/LowSimilarity/b11.gif","",""
"50","","button-response","322","566964","0.0-322.0","","","","0",""
"","","call-function","323","567971","0.0-323.0","","","","",""
"-1","-1","single-stim","324","568472","0.0-324.0","","","<p class='center-content'><br><br><br><br><br>+</p>","",""
"-1","-1","single-stim","325","570475","0.0-325.0","","","Blobs/LowSimilarity/d02.gif","",""
"110","","button-response","326","571587","0.0-326.0","","","","0",""
"-1","-1","single-stim","327","573089","0.0-327.0","","","<p class='center-content'><br><br><br><br><br>+</p>","",""
"-1","-1","single-stim","328","575090","0.0-328.0","","","Blobs/LowSimilarity/a10.gif","",""
"176","","button-response","329","576269","0.0-329.0","","","","0",""
"-1","-1","single-stim","330","577772","0.0-330.0","","","<p class='center-content'><br><br><br><br><br>+</p>","",""
"-1","-1","single-stim","331","579775","0.0-331.0","","","Blobs/LowSimilarity/c08.gif","",""
"144","","button-response","332","580921","0.0-332.0","","","","0",""
"-1","-1","single-stim","333","582423","0.0-333.0","","","<p class='center-content'><br><br><br><br><br>+</p>","",""
"-1","-1","single-stim","334","584425","0.0-334.0","","","Blobs/LowSimilarity/b16.gif","",""
"172","","button-response","335","585598","0.0-335.0","","","","0",""
"-1","-1","single-stim","336","587101","0.0-336.0","","","<p class='center-content'><br><br><br><br><br>+</p>","",""
"-1","-1","single-stim","337","589103","0.0-337.0","","","Blobs/LowSimilarity/d14.gif","",""
"42","","button-response","338","590147","0.0-338.0","","","","0",""
"-1","-1","single-stim","339","591648","0.0-339.0","","","<p class='center-content'><br><br><br><br><br>+</p>","",""
"-1","-1","single-stim","340","593650","0.0-340.0","","","Blobs/LowSimilarity/a06.gif","",""
"330","","button-response","341","594982","0.0-341.0","","","","0",""
"-1","-1","single-stim","342","596484","0.0-342.0","","","<p class='center-content'><br><br><br><br><br>+</p>","",""
"-1","-1","single-stim","343","598486","0.0-343.0","","","Blobs/LowSimilarity/c04.gif","",""
"51","","button-response","344","599539","0.0-344.0","","","","0",""
"-1","-1","single-stim","345","601040","0.0-345.0","","","<p class='center-content'><br><br><br><br><br>+</p>","",""
"-1","-1","single-stim","346","603042","0.0-346.0","","","Blobs/LowSimilarity/b13.gif","",""
"208","","button-response","347","604252","0.0-347.0","","","","0",""
"-1","-1","single-stim","348","605754","0.0-348.0","","","<p class='center-content'><br><br><br><br><br>+</p>","",""
"-1","-1","single-stim","349","607757","0.0-349.0","","","Blobs/LowSimilarity/d12.gif","",""
"173","","button-response","350","608932","0.0-350.0","","","","0",""
"-1","-1","single-stim","351","610436","0.0-351.0","","","<p class='center-content'><br><br><br><br><br>+</p>","",""
"-1","-1","single-stim","352","612438","0.0-352.0","","","Blobs/LowSimilarity/a09.gif","",""
"168","","button-response","353","613608","0.0-353.0","","","","0",""
"-1","-1","single-stim","354","615109","0.0-354.0","","","<p class='center-content'><br><br><br><br><br>+</p>","",""
"-1","-1","single-stim","355","617111","0.0-355.0","","","Blobs/LowSimilarity/c09.gif","",""
"199","","button-response","356","618312","0.0-356.0","","","","0",""
"-1","-1","single-stim","357","619813","0.0-357.0","","","<p class='center-content'><br><br><br><br><br>+</p>","",""
"-1","-1","single-stim","358","621815","0.0-358.0","","","Blobs/LowSimilarity/b14.gif","",""
"37","","button-response","359","622854","0.0-359.0","","","","0",""
"-1","-1","single-stim","360","624355","0.0-360.0","","","<p class='center-content'><br><br><br><br><br>+</p>","",""
"-1","-1","single-stim","361","626357","0.0-361.0","","","Blobs/LowSimilarity/d16.gif","",""
"54","","button-response","362","627413","0.0-362.0","","","","0",""
"-1","-1","single-stim","363","628916","0.0-363.0","","","<p class='center-content'><br><br><br><br><br>+</p>","",""
"-1","-1","single-stim","364","630919","0.0-364.0","","","Blobs/LowSimilarity/a05.gif","",""
"122","","button-response","365","632043","0.0-365.0","","","","0",""
"-1","-1","single-stim","366","633546","0.0-366.0","","","<p class='center-content'><br><br><br><br><br>+</p>","",""
"-1","-1","single-stim","367","635548","0.0-367.0","","","Blobs/LowSimilarity/c03.gif","",""
"28","","button-response","368","636577","0.0-368.0","","","","0",""
"-1","-1","single-stim","369","638081","0.0-369.0","","","<p class='center-content'><br><br><br><br><br>+</p>","",""
"-1","-1","single-stim","370","640083","0.0-370.0","","","Blobs/LowSimilarity/b06.gif","",""
"67","","button-response","371","641151","0.0-371.0","","","","0",""
"-1","-1","single-stim","372","642653","0.0-372.0","","","<p class='center-content'><br><br><br><br><br>+</p>","",""
"-1","-1","single-stim","373","644654","0.0-373.0","","","Blobs/LowSimilarity/d01.gif","",""
"22","","button-response","374","645677","0.0-374.0","","","","0",""
"-1","-1","single-stim","375","647179","0.0-375.0","","","<p class='center-content'><br><br><br><br><br>+</p>","",""
"-1","-1","single-stim","376","649181","0.0-376.0","","","Blobs/LowSimilarity/a11.gif","",""
"139","","button-response","377","650323","0.0-377.0","","","","0",""
"-1","-1","single-stim","378","651824","0.0-378.0","","","<p class='center-content'><br><br><br><br><br>+</p>","",""
"-1","-1","single-stim","379","653826","0.0-379.0","","","Blobs/LowSimilarity/c15.gif","",""
"165","","button-response","380","654993","0.0-380.0","","","","0",""
"-1","-1","single-stim","381","656497","0.0-381.0","","","<p class='center-content'><br><br><br><br><br>+</p>","",""
"-1","-1","single-stim","382","658498","0.0-382.0","","","Blobs/LowSimilarity/b01.gif","",""
"511","","button-response","383","660012","0.0-383.0","","","","0",""
"-1","-1","single-stim","384","661514","0.0-384.0","","","<p class='center-content'><br><br><br><br><br>+</p>","",""
"-1","-1","single-stim","385","663516","0.0-385.0","","","Blobs/LowSimilarity/d07.gif","",""
"34","","button-response","386","664552","0.0-386.0","","","","0",""
"-1","-1","single-stim","387","666053","0.0-387.0","","","<p class='center-content'><br><br><br><br><br>+</p>","",""
"-1","-1","single-stim","388","668054","0.0-388.0","","","Blobs/LowSimilarity/a02.gif","",""
"176","","button-response","389","669232","0.0-389.0","","","","0",""
"-1","-1","single-stim","390","670735","0.0-390.0","","","<p class='center-content'><br><br><br><br><br>+</p>","",""
"-1","-1","single-stim","391","672737","0.0-391.0","","","Blobs/LowSimilarity/c16.gif","",""
"20","","button-response","392","673758","0.0-392.0","","","","0",""
"-1","-1","single-stim","393","675261","0.0-393.0","","","<p class='center-content'><br><br><br><br><br>+</p>","",""
"-1","-1","single-stim","394","677264","0.0-394.0","","","Blobs/LowSimilarity/b08.gif","",""
"100","","button-response","395","678366","0.0-395.0","","","","0",""
"-1","-1","single-stim","396","679867","0.0-396.0","","","<p class='center-content'><br><br><br><br><br>+</p>","",""
"-1","-1","single-stim","397","681869","0.0-397.0","","","Blobs/LowSimilarity/d10.gif","",""
"85","","button-response","398","682956","0.0-398.0","","","","0",""
"-1","-1","single-stim","399","684457","0.0-399.0","","","<p class='center-content'><br><br><br><br><br>+</p>","",""
"-1","-1","single-stim","400","686458","0.0-400.0","","","Blobs/LowSimilarity/a16.gif","",""
"23","","button-response","401","687484","0.0-401.0","","","","0",""
"-1","-1","single-stim","402","688985","0.0-402.0","","","<p class='center-content'><br><br><br><br><br>+</p>","",""
"-1","-1","single-stim","403","690987","0.0-403.0","","","Blobs/LowSimilarity/c14.gif","",""
"30","","button-response","404","692018","0.0-404.0","","","","0",""
"-1","-1","single-stim","405","693521","0.0-405.0","","","<p class='center-content'><br><br><br><br><br>+</p>","",""
"-1","-1","single-stim","406","695523","0.0-406.0","","","Blobs/LowSimilarity/b03.gif","",""
"14","","button-response","407","696537","0.0-407.0","","","","0",""
"-1","-1","single-stim","408","698038","0.0-408.0","","","<p class='center-content'><br><br><br><br><br>+</p>","",""
"-1","-1","single-stim","409","700040","0.0-409.0","","","Blobs/LowSimilarity/d04.gif","",""
"2533","","button-response","410","703574","0.0-410.0","","","","0",""
"-1","-1","single-stim","411","705076","0.0-411.0","","","<p class='center-content'><br><br><br><br><br>+</p>","",""
"-1","-1","single-stim","412","707078","0.0-412.0","","","Blobs/LowSimilarity/a08.gif","",""
"133","","button-response","413","708213","0.0-413.0","","","","0",""
"-1","-1","single-stim","414","709716","0.0-414.0","","","<p class='center-content'><br><br><br><br><br>+</p>","",""
"-1","-1","single-stim","415","711718","0.0-415.0","","","Blobs/LowSimilarity/c05.gif","",""
"100","","button-response","416","712820","0.0-416.0","","","","0",""
"-1","-1","single-stim","417","714322","0.0-417.0","","","<p class='center-content'><br><br><br><br><br>+</p>","",""
"-1","-1","single-stim","418","716323","0.0-418.0","","","Blobs/LowSimilarity/b11.gif","",""
"53","","button-response","419","717378","0.0-419.0","","","","0",""
"-1","-1","single-stim","420","718882","0.0-420.0","","","<p class='center-content'><br><br><br><br><br>+</p>","",""
"-1","-1","single-stim","421","720883","0.0-421.0","","","Blobs/LowSimilarity/d02.gif","",""
"101","","button-response","422","721985","0.0-422.0","","","","0",""
"-1","-1","single-stim","423","723488","0.0-423.0","","","<p class='center-content'><br><br><br><br><br>+</p>","",""
"-1","-1","single-stim","424","725489","0.0-424.0","","","Blobs/LowSimilarity/a10.gif","",""
"69","","button-response","425","726560","0.0-425.0","","","","0",""
"-1","-1","single-stim","426","728062","0.0-426.0","","","<p class='center-content'><br><br><br><br><br>+</p>","",""
"-1","-1","single-stim","427","730064","0.0-427.0","","","Blobs/LowSimilarity/c08.gif","",""
"197","","button-response","428","731263","0.0-428.0","","","","0",""
"-1","-1","single-stim","429","732766","0.0-429.0","","","<p class='center-content'><br><br><br><br><br>+</p>","",""
"-1","-1","single-stim","430","734768","0.0-430.0","","","Blobs/LowSimilarity/b16.gif","",""
"116","","button-response","431","735885","0.0-431.0","","","","0",""
"-1","-1","single-stim","432","737387","0.0-432.0","","","<p class='center-content'><br><br><br><br><br>+</p>","",""
"-1","-1","single-stim","433","739389","0.0-433.0","","","Blobs/LowSimilarity/d14.gif","",""
"9083","","button-response","434","749473","0.0-434.0","","","","0",""
"-1","-1","single-stim","435","750975","0.0-435.0","","","<p class='center-content'><br><br><br><br><br>+</p>","",""
"-1","-1","single-stim","436","752977","0.0-436.0","","","Blobs/LowSimilarity/a06.gif","",""
"155","","button-response","437","754136","0.0-437.0","","","","0",""
"-1","-1","single-stim","438","755638","0.0-438.0","","","<p class='center-content'><br><br><br><br><br>+</p>","",""
"-1","-1","single-stim","439","757639","0.0-439.0","","","Blobs/LowSimilarity/c04.gif","",""
"153","","button-response","440","758793","0.0-440.0","","","","0",""
"-1","-1","single-stim","441","760295","0.0-441.0","","","<p class='center-content'><br><br><br><br><br>+</p>","",""
"-1","-1","single-stim","442","762296","0.0-442.0","","","Blobs/LowSimilarity/b13.gif","",""
"141","","button-response","443","763438","0.0-443.0","","","","0",""
"-1","-1","single-stim","444","764940","0.0-444.0","","","<p class='center-content'><br><br><br><br><br>+</p>","",""
"-1","-1","single-stim","445","766941","0.0-445.0","","","Blobs/LowSimilarity/d12.gif","",""
"110","","button-response","446","768053","0.0-446.0","","","","0",""
"-1","-1","single-stim","447","769554","0.0-447.0","","","<p class='center-content'><br><br><br><br><br>+</p>","",""
"-1","-1","single-stim","448","771556","0.0-448.0","","","Blobs/LowSimilarity/a09.gif","",""
"68","","button-response","449","772626","0.0-449.0","","","","0",""
"-1","-1","single-stim","450","774128","0.0-450.0","","","<p class='center-content'><br><br><br><br><br>+</p>","",""
"-1","-1","single-stim","451","776129","0.0-451.0","","","Blobs/LowSimilarity/c09.gif","",""
"136","","button-response","452","777266","0.0-452.0","","","","0",""
"-1","-1","single-stim","453","778770","0.0-453.0","","","<p class='center-content'><br><br><br><br><br>+</p>","",""
"-1","-1","single-stim","454","780771","0.0-454.0","","","Blobs/LowSimilarity/b14.gif","",""
"37","","button-response","455","781811","0.0-455.0","","","","0",""
"-1","-1","single-stim","456","783314","0.0-456.0","","","<p class='center-content'><br><br><br><br><br>+</p>","",""
"-1","-1","single-stim","457","785315","0.0-457.0","","","Blobs/LowSimilarity/d16.gif","",""
"208","","button-response","458","786524","0.0-458.0","","","","0",""
"-1","-1","single-stim","459","788026","0.0-459.0","","","<p class='center-content'><br><br><br><br><br>+</p>","",""
"-1","-1","single-stim","460","790028","0.0-460.0","","","Blobs/LowSimilarity/a05.gif","",""
"368","","button-response","461","791396","0.0-461.0","","","","0",""
"-1","-1","single-stim","462","792898","0.0-462.0","","","<p class='center-content'><br><br><br><br><br>+</p>","",""
"-1","-1","single-stim","463","794899","0.0-463.0","","","Blobs/LowSimilarity/c03.gif","",""
"237","","button-response","464","796139","0.0-464.0","","","","0",""
"-1","-1","single-stim","465","797641","0.0-465.0","","","<p class='center-content'><br><br><br><br><br>+</p>","",""
"-1","-1","single-stim","466","799643","0.0-466.0","","","Blobs/LowSimilarity/b06.gif","",""
"144","","button-response","467","800788","0.0-467.0","","","","0",""
"","","call-function","468","801796","0.0-468.0","","","","",""
"-1","-1","single-stim","469","802298","0.0-469.0","","","<p class='center-content'><br><br><br><br><br>+</p>","",""
"-1","-1","single-stim","470","804300","0.0-470.0","","","Blobs/LowSimilarity/d01.gif","",""
"77","","button-response","471","805379","0.0-471.0","","","","0",""
"-1","-1","single-stim","472","806882","0.0-472.0","","","<p class='center-content'><br><br><br><br><br>+</p>","",""
"-1","-1","single-stim","473","808883","0.0-473.0","","","Blobs/LowSimilarity/a11.gif","",""
"37496","","button-response","474","847383","0.0-474.0","","","","0",""
"-1","-1","single-stim","475","848884","0.0-475.0","","","<p class='center-content'><br><br><br><br><br>+</p>","",""
"-1","-1","single-stim","476","850887","0.0-476.0","","","Blobs/LowSimilarity/c15.gif","",""
"159","","button-response","477","852048","0.0-477.0","","","","0",""
"-1","-1","single-stim","478","853549","0.0-478.0","","","<p class='center-content'><br><br><br><br><br>+</p>","",""
"-1","-1","single-stim","479","855551","0.0-479.0","","","Blobs/LowSimilarity/b01.gif","",""
"125","","button-response","480","856678","0.0-480.0","","","","0",""
"-1","-1","single-stim","481","858180","0.0-481.0","","","<p class='center-content'><br><br><br><br><br>+</p>","",""
"-1","-1","single-stim","482","860182","0.0-482.0","","","Blobs/LowSimilarity/d07.gif","",""
"168","","button-response","483","861351","0.0-483.0","","","","0",""
"-1","-1","single-stim","484","862853","0.0-484.0","","","<p class='center-content'><br><br><br><br><br>+</p>","",""
"-1","-1","single-stim","485","864855","0.0-485.0","","","Blobs/LowSimilarity/a02.gif","",""
"49","","button-response","486","865905","0.0-486.0","","","","0",""
"-1","-1","single-stim","487","867406","0.0-487.0","","","<p class='center-content'><br><br><br><br><br>+</p>","",""
"-1","-1","single-stim","488","869408","0.0-488.0","","","Blobs/LowSimilarity/c16.gif","",""
"68","","button-response","489","870478","0.0-489.0","","","","0",""
"-1","-1","single-stim","490","871979","0.0-490.0","","","<p class='center-content'><br><br><br><br><br>+</p>","",""
"-1","-1","single-stim","491","873980","0.0-491.0","","","Blobs/LowSimilarity/b08.gif","",""
"110","","button-response","492","875093","0.0-492.0","","","","0",""
"-1","-1","single-stim","493","876594","0.0-493.0","","","<p class='center-content'><br><br><br><br><br>+</p>","",""
"-1","-1","single-stim","494","878597","0.0-494.0","","","Blobs/LowSimilarity/d10.gif","",""
"6560","","button-response","495","886157","0.0-495.0","","","","0",""
"-1","-1","single-stim","496","887660","0.0-496.0","","","<p class='center-content'><br><br><br><br><br>+</p>","",""
"-1","-1","single-stim","497","889662","0.0-497.0","","","Blobs/LowSimilarity/a16.gif","",""
"78","","button-response","498","890744","0.0-498.0","","","","0",""
"-1","-1","single-stim","499","892245","0.0-499.0","","","<p class='center-content'><br><br><br><br><br>+</p>","",""
"-1","-1","single-stim","500","894247","0.0-500.0","","","Blobs/LowSimilarity/c14.gif","",""
"158","","button-response","501","895406","0.0-501.0","","","","0",""
"-1","-1","single-stim","502","896908","0.0-502.0","","","<p class='center-content'><br><br><br><br><br>+</p>","",""
"-1","-1","single-stim","503","898909","0.0-503.0","","","Blobs/LowSimilarity/b03.gif","",""
"215","","button-response","504","900126","0.0-504.0","","","","0",""
"-1","-1","single-stim","505","901627","0.0-505.0","","","<p class='center-content'><br><br><br><br><br>+</p>","",""
"-1","-1","single-stim","506","903629","0.0-506.0","","","Blobs/LowSimilarity/d04.gif","",""
"92","","button-response","507","904725","0.0-507.0","","","","0",""
"-1","-1","single-stim","508","906228","0.0-508.0","","","<p class='center-content'><br><br><br><br><br>+</p>","",""
"-1","-1","single-stim","509","908229","0.0-509.0","","","Blobs/LowSimilarity/a08.gif","",""
"143","","button-response","510","909373","0.0-510.0","","","","0",""
"-1","-1","single-stim","511","910875","0.0-511.0","","","<p class='center-content'><br><br><br><br><br>+</p>","",""
"-1","-1","single-stim","512","912877","0.0-512.0","","","Blobs/LowSimilarity/c05.gif","",""
"172","","button-response","513","914052","0.0-513.0","","","","0",""
"-1","-1","single-stim","514","915554","0.0-514.0","","","<p class='center-content'><br><br><br><br><br>+</p>","",""
"-1","-1","single-stim","515","917556","0.0-515.0","","","Blobs/LowSimilarity/b11.gif","",""
"183","","button-response","516","918741","0.0-516.0","","","","0",""
"-1","-1","single-stim","517","920242","0.0-517.0","","","<p class='center-content'><br><br><br><br><br>+</p>","",""
"-1","-1","single-stim","518","922244","0.0-518.0","","","Blobs/LowSimilarity/d02.gif","",""
"234","","button-response","519","923479","0.0-519.0","","","","0",""
"-1","-1","single-stim","520","924982","0.0-520.0","","","<p class='center-content'><br><br><br><br><br>+</p>","",""
"-1","-1","single-stim","521","926983","0.0-521.0","","","Blobs/LowSimilarity/a10.gif","",""
"147","","button-response","522","928131","0.0-522.0","","","","0",""
"-1","-1","single-stim","523","929635","0.0-523.0","","","<p class='center-content'><br><br><br><br><br>+</p>","",""
"-1","-1","single-stim","524","931636","0.0-524.0","","","Blobs/LowSimilarity/c08.gif","",""
"1132371","","button-response","525","2065009","0.0-525.0","","","","0",""
"-1","-1","single-stim","526","2066511","0.0-526.0","","","<p class='center-content'><br><br><br><br><br>+</p>","",""
"-1","-1","single-stim","527","2068513","0.0-527.0","","","Blobs/LowSimilarity/b16.gif","",""
"317","","button-response","528","2069831","0.0-528.0","","","","0",""
"-1","-1","single-stim","529","2071333","0.0-529.0","","","<p class='center-content'><br><br><br><br><br>+</p>","",""
"-1","-1","single-stim","530","2073335","0.0-530.0","","","Blobs/LowSimilarity/d14.gif","",""
"531","","button-response","531","2074867","0.0-531.0","","","","0",""
"-1","-1","single-stim","532","2076370","0.0-532.0","","","<p class='center-content'><br><br><br><br><br>+</p>","",""
"-1","-1","single-stim","533","2078372","0.0-533.0","","","Blobs/LowSimilarity/a06.gif","",""
"11525","","button-response","534","2090899","0.0-534.0","","","","0",""
"-1","-1","single-stim","535","2092401","0.0-535.0","","","<p class='center-content'><br><br><br><br><br>+</p>","",""
"-1","-1","single-stim","536","2094403","0.0-536.0","","","Blobs/LowSimilarity/c04.gif","",""
"146111","","button-response","537","2241516","0.0-537.0","","","","0",""
"-1","-1","single-stim","538","2243021","0.0-538.0","","","<p class='center-content'><br><br><br><br><br>+</p>","",""
"-1","-1","single-stim","539","2245022","0.0-539.0","","","Blobs/LowSimilarity/b13.gif","",""
"291","","button-response","540","2246314","0.0-540.0","","","","0",""
"-1","-1","single-stim","541","2247817","0.0-541.0","","","<p class='center-content'><br><br><br><br><br>+</p>","",""
"-1","-1","single-stim","542","2249820","0.0-542.0","","","Blobs/LowSimilarity/d12.gif","",""
"138","","button-response","543","2250960","0.0-543.0","","","","0",""
"-1","-1","single-stim","544","2252462","0.0-544.0","","","<p class='center-content'><br><br><br><br><br>+</p>","",""
"-1","-1","single-stim","545","2254463","0.0-545.0","","","Blobs/LowSimilarity/a09.gif","",""
"334","","button-response","546","2255799","0.0-546.0","","","","0",""
"-1","-1","single-stim","547","2257301","0.0-547.0","","","<p class='center-content'><br><br><br><br><br>+</p>","",""
"-1","-1","single-stim","548","2259302","0.0-548.0","","","Blobs/LowSimilarity/c09.gif","",""
"1172","","button-response","549","2261475","0.0-549.0","","","","0",""
"-1","-1","single-stim","550","2262979","0.0-550.0","","","<p class='center-content'><br><br><br><br><br>+</p>","",""
"-1","-1","single-stim","551","2264980","0.0-551.0","","","Blobs/LowSimilarity/b14.gif","",""
"619","","button-response","552","2266601","0.0-552.0","","","","0",""
"-1","-1","single-stim","553","2268103","0.0-553.0","","","<p class='center-content'><br><br><br><br><br>+</p>","",""
"-1","-1","single-stim","554","2270105","0.0-554.0","","","Blobs/LowSimilarity/d16.gif","",""
"1820","","button-response","555","2272926","0.0-555.0","","","","0",""
"-1","-1","single-stim","556","2274428","0.0-556.0","","","<p class='center-content'><br><br><br><br><br>+</p>","",""
"-1","-1","single-stim","557","2276430","0.0-557.0","","","Blobs/LowSimilarity/a05.gif","",""
"254","","button-response","558","2277686","0.0-558.0","","","","0",""
"-1","-1","single-stim","559","2279189","0.0-559.0","","","<p class='center-content'><br><br><br><br><br>+</p>","",""
"-1","-1","single-stim","560","2281191","0.0-560.0","","","Blobs/LowSimilarity/c03.gif","",""
"28056","","button-response","561","2310249","0.0-561.0","","","","0",""
"-1","-1","single-stim","562","2311751","0.0-562.0","","","<p class='center-content'><br><br><br><br><br>+</p>","",""
"-1","-1","single-stim","563","2313754","0.0-563.0","","","Blobs/LowSimilarity/b06.gif","",""
"7792","","button-response","564","2322547","0.0-564.0","","","","0",""
"-1","-1","single-stim","565","2324049","0.0-565.0","","","<p class='center-content'><br><br><br><br><br>+</p>","",""
"-1","-1","single-stim","566","2326050","0.0-566.0","","","Blobs/LowSimilarity/d01.gif","",""
"21894","","button-response","567","2348948","0.0-567.0","","","","0",""
"-1","-1","single-stim","568","2350452","0.0-568.0","","","<p class='center-content'><br><br><br><br><br>+</p>","",""
"-1","-1","single-stim","569","2352453","0.0-569.0","","","Blobs/LowSimilarity/a11.gif","",""
"377","","button-response","570","2353831","0.0-570.0","","","","0",""
"-1","-1","single-stim","571","2355333","0.0-571.0","","","<p class='center-content'><br><br><br><br><br>+</p>","",""
"-1","-1","single-stim","572","2357335","0.0-572.0","","","Blobs/LowSimilarity/c15.gif","",""
"362","","button-response","573","2358698","0.0-573.0","","","","0",""
"-1","-1","single-stim","574","2360200","0.0-574.0","","","<p class='center-content'><br><br><br><br><br>+</p>","",""
"-1","-1","single-stim","575","2362202","0.0-575.0","","","Blobs/LowSimilarity/b01.gif","",""
"280","","button-response","576","2363484","0.0-576.0","","","","0",""
"-1","-1","single-stim","577","2364985","0.0-577.0","","","<p class='center-content'><br><br><br><br><br>+</p>","",""
"-1","-1","single-stim","578","2366987","0.0-578.0","","","Blobs/LowSimilarity/d07.gif","",""
"756","","button-response","579","2368744","0.0-579.0","","","","0",""
"-1","-1","single-stim","580","2370247","0.0-580.0","","","<p class='center-content'><br><br><br><br><br>+</p>","",""
"-1","-1","single-stim","581","2372250","0.0-581.0","","","Blobs/LowSimilarity/a02.gif","",""
"3988","","button-response","582","2377241","0.0-582.0","","","","0",""
"-1","-1","single-stim","583","2378742","0.0-583.0","","","<p class='center-content'><br><br><br><br><br>+</p>","",""
"-1","-1","single-stim","584","2380745","0.0-584.0","","","Blobs/LowSimilarity/c16.gif","",""
"3471","","button-response","585","2385217","0.0-585.0","","","","0",""
"-1","-1","single-stim","586","2386719","0.0-586.0","","","<p class='center-content'><br><br><br><br><br>+</p>","",""
"-1","-1","single-stim","587","2388721","0.0-587.0","","","Blobs/LowSimilarity/b08.gif","",""
"154","","button-response","588","2389878","0.0-588.0","","","","0",""
"-1","-1","single-stim","589","2391380","0.0-589.0","","","<p class='center-content'><br><br><br><br><br>+</p>","",""
"-1","-1","single-stim","590","2393382","0.0-590.0","","","Blobs/LowSimilarity/d10.gif","",""
"102","","button-response","591","2394486","0.0-591.0","","","","0",""
"-1","-1","single-stim","592","2395987","0.0-592.0","","","<p class='center-content'><br><br><br><br><br>+</p>","",""
"-1","-1","single-stim","593","2397989","0.0-593.0","","","Blobs/LowSimilarity/a16.gif","",""
"190","","button-response","594","2399180","0.0-594.0","","","","0",""
"-1","-1","single-stim","595","2400683","0.0-595.0","","","<p class='center-content'><br><br><br><br><br>+</p>","",""
"-1","-1","single-stim","596","2402684","0.0-596.0","","","Blobs/LowSimilarity/c14.gif","",""
"378","","button-response","597","2404063","0.0-597.0","","","","0",""
"-1","-1","single-stim","598","2405565","0.0-598.0","","","<p class='center-content'><br><br><br><br><br>+</p>","",""
"-1","-1","single-stim","599","2407567","0.0-599.0","","","Blobs/LowSimilarity/b03.gif","",""
"102","","button-response","600","2408669","0.0-600.0","","","","0",""
"-1","-1","single-stim","601","2410170","0.0-601.0","","","<p class='center-content'><br><br><br><br><br>+</p>","",""
"-1","-1","single-stim","602","2412172","0.0-602.0","","","Blobs/LowSimilarity/d04.gif","",""
"214","","button-response","603","2413386","0.0-603.0","","","","0",""
"-1","-1","single-stim","604","2414890","0.0-604.0","","","<p class='center-content'><br><br><br><br><br>+</p>","",""
"-1","-1","single-stim","605","2416891","0.0-605.0","","","Blobs/LowSimilarity/a08.gif","",""
"12","","button-response","606","2417906","0.0-606.0","","","","0",""
"-1","-1","single-stim","607","2419408","0.0-607.0","","","<p class='center-content'><br><br><br><br><br>+</p>","",""
"-1","-1","single-stim","608","2421409","0.0-608.0","","","Blobs/LowSimilarity/c05.gif","",""
"60","","button-response","609","2422471","0.0-609.0","","","","0",""
"-1","-1","single-stim","610","2423973","0.0-610.0","","","<p class='center-content'><br><br><br><br><br>+</p>","",""
"-1","-1","single-stim","611","2425975","0.0-611.0","","","Blobs/LowSimilarity/b11.gif","",""
"28","","button-response","612","2427005","0.0-612.0","","","","0",""
"","","call-function","613","2428016","0.0-613.0","","","","",""
"21942","13","text","614","2449958","0.0-614.0","","","","",""
"1305","13","text","615","2452265","0.0-615.0","","","","",""
"4468","","survey-text","616","2457735","0.0-616.0","{""Q0"":""26""}","","","",""
"1809","","survey-multi-choice","617","2460547","0.0-617.0","{""Q0"":""Male""}","","","",""
"2706","","survey-multi-choice","618","2464257","0.0-618.0","{""Q0"":""Asian""}","","","",""
"2639","","survey-text","619","2467899","0.0-619.0","{""Q0"":""1""}","","","",""
"1140","","survey-text","620","2470041","0.0-620.0","{""Q0"":""2""}","","","",""
"879","","survey-text","621","2471921","0.0-621.0","{""Q0"":""3""}","","","",""
"866","","survey-text","622","2473788","0.0-622.0","{""Q0"":""4""}","","","",""
"898","","survey-text","623","2475688","0.0-623.0","{""Q0"":""5""}","","","",""
"1153","13","text","624","2477842","0.0-624.0","","","","",""
"2506","","button-response","625","2481351","0.0-625.0","","","Blobs/LowSimilarity/c12.gif","0","b"
"76","","button-response","626","2482432","0.0-626.0","","","Blobs/LowSimilarity/c16.gif","0","b"
"85","","button-response","627","2483519","0.0-627.0","","","Blobs/LowSimilarity/c09.gif","0","b"
"97","","button-response","628","2484620","0.0-628.0","","","Blobs/LowSimilarity/b13.gif","0","b"
"127","","button-response","629","2485750","0.0-629.0","","","Blobs/LowSimilarity/a11.gif","0","b"
"124","","button-response","630","2486877","0.0-630.0","","","Blobs/LowSimilarity/a06.gif","0","b"
"158","","button-response","631","2488039","0.0-631.0","","","Blobs/LowSimilarity/c14.gif","0","b"
"105","","button-response","632","2489148","0.0-632.0","","","Blobs/LowSimilarity/b07.gif","0","b"
"217","","button-response","633","2490367","0.0-633.0","","","Blobs/LowSimilarity/a10.gif","0","b"
"18","","button-response","634","2491390","0.0-634.0","","","Blobs/LowSimilarity/b14.gif","0","b"
"180","","button-response","635","2492572","0.0-635.0","","","Blobs/LowSimilarity/d15.gif","0","b"
"125","","button-response","636","2493700","0.0-636.0","","","Blobs/LowSimilarity/a07.gif","0","b"
"163","","button-response","637","2494869","0.0-637.0","","","Blobs/LowSimilarity/d03.gif","0","b"
"87","","button-response","638","2495958","0.0-638.0","","","Blobs/LowSimilarity/b08.gif","0","b"
"218","","button-response","639","2497179","0.0-639.0","","","Blobs/LowSimilarity/c10.gif","0","b"
"150","","button-response","640","2498332","0.0-640.0","","","Blobs/LowSimilarity/b05.gif","0","b"
"27","","button-response","641","2499363","0.0-641.0","","","Blobs/LowSimilarity/d14.gif","0","b"
"213","","button-response","642","2500578","0.0-642.0","","","Blobs/LowSimilarity/a05.gif","0","b"
"133","","button-response","643","2501713","0.0-643.0","","","Blobs/LowSimilarity/a12.gif","0","b"
"21","","button-response","644","2502738","0.0-644.0","","","Blobs/LowSimilarity/c07.gif","0","b"
"165","","button-response","645","2503906","0.0-645.0","","","Blobs/LowSimilarity/a01.gif","0","b"
"130","","button-response","646","2505039","0.0-646.0","","","Blobs/LowSimilarity/c03.gif","0","b"
"199","","button-response","647","2506240","0.0-647.0","","","Blobs/LowSimilarity/c08.gif","0","b"
"127","","button-response","648","2507371","0.0-648.0","","","Blobs/LowSimilarity/d12.gif","0","b"
"139","","button-response","649","2508513","0.0-649.0","","","Blobs/LowSimilarity/b12.gif","0","b"
"130","","button-response","650","2509645","0.0-650.0","","","Blobs/LowSimilarity/d11.gif","0","b"
"119","","button-response","651","2510768","0.0-651.0","","","Blobs/LowSimilarity/b10.gif","0","b"
"141","","button-response","652","2511911","0.0-652.0","","","Blobs/LowSimilarity/b04.gif","0","b"
"171","","button-response","653","2513085","0.0-653.0","","","Blobs/LowSimilarity/b06.gif","0","b"
"18","","button-response","654","2514107","0.0-654.0","","","Blobs/LowSimilarity/a09.gif","0","b"
"208","","button-response","655","2515317","0.0-655.0","","","Blobs/LowSimilarity/d10.gif","0","b"
"28","","button-response","656","2516348","0.0-656.0","","","Blobs/LowSimilarity/a14.gif","0","b"
"22","","button-response","657","2517373","0.0-657.0","","","Blobs/LowSimilarity/c02.gif","0","b"
"49","","button-response","658","2518425","0.0-658.0","","","Blobs/LowSimilarity/c13.gif","0","b"
"197","","button-response","659","2519625","0.0-659.0","","","Blobs/LowSimilarity/a03.gif","0","b"
"107","","button-response","660","2520735","0.0-660.0","","","Blobs/LowSimilarity/d02.gif","0","b"
"1270","","button-response","661","2523007","0.0-661.0","","","Blobs/LowSimilarity/a02.gif","0","b"
"42","","button-response","662","2524052","0.0-662.0","","","Blobs/LowSimilarity/a08.gif","0","b"
"57","","button-response","663","2525112","0.0-663.0","","","Blobs/LowSimilarity/b09.gif","0","b"
"45","","button-response","664","2526160","0.0-664.0","","","Blobs/LowSimilarity/c15.gif","0","b"
"27","","button-response","665","2527190","0.0-665.0","","","Blobs/LowSimilarity/d05.gif","0","b"
"157","","button-response","666","2528350","0.0-666.0","","","Blobs/LowSimilarity/d04.gif","0","b"
"220","","button-response","667","2529573","0.0-667.0","","","Blobs/LowSimilarity/b03.gif","0","b"
"20","","button-response","668","2530595","0.0-668.0","","","Blobs/LowSimilarity/d13.gif","0","b"
"206","","button-response","669","2531806","0.0-669.0","","","Blobs/LowSimilarity/a15.gif","0","b"
"156","","button-response","670","2532965","0.0-670.0","","","Blobs/LowSimilarity/d16.gif","0","b"
"73","","button-response","671","2534042","0.0-671.0","","","Blobs/LowSimilarity/d01.gif","0","b"
"166","","button-response","672","2535210","0.0-672.0","","","Blobs/LowSimilarity/d09.gif","0","b"
"12","","button-response","673","2536226","0.0-673.0","","","Blobs/LowSimilarity/b16.gif","0","b"
"219","","button-response","674","2537447","0.0-674.0","","","Blobs/LowSimilarity/b02.gif","0","b"
"173","","button-response","675","2538624","0.0-675.0","","","Blobs/LowSimilarity/b01.gif","0","b"
"13","","button-response","676","2539641","0.0-676.0","","","Blobs/LowSimilarity/b11.gif","0","b"
"44","","button-response","677","2540687","0.0-677.0","","","Blobs/LowSimilarity/c04.gif","0","b"
"113","","button-response","678","2541803","0.0-678.0","","","Blobs/LowSimilarity/a04.gif","0","b"
"92","","button-response","679","2542898","0.0-679.0","","","Blobs/LowSimilarity/d07.gif","0","b"
"29","","button-response","680","2543930","0.0-680.0","","","Blobs/LowSimilarity/c06.gif","0","b"
"60","","button-response","681","2544993","0.0-681.0","","","Blobs/LowSimilarity/c01.gif","0","b"
"57","","button-response","682","2546053","0.0-682.0","","","Blobs/LowSimilarity/c05.gif","0","b"
"26","","button-response","683","2547083","0.0-683.0","","","Blobs/LowSimilarity/c11.gif","0","b"
"13","","button-response","684","2548098","0.0-684.0","","","Blobs/LowSimilarity/d08.gif","0","b"
"22","","button-response","685","2549122","0.0-685.0","","","Blobs/LowSimilarity/d06.gif","0","b"
"143","","button-response","686","2550269","0.0-686.0","","","Blobs/LowSimilarity/a13.gif","0","b"
"21","","button-response","687","2551292","0.0-687.0","","","Blobs/LowSimilarity/a16.gif","0","b"
"36","","button-response","688","2552331","0.0-688.0","","","Blobs/LowSimilarity/b15.gif","0","b"
"8986","13","text","689","2562319","0.0-689.0","","","","",""
"1714","13","text","690","2565034","0.0-690.0","","","","",""
"17590","","survey-text","691","2583628","0.0-691.0","{""Q0"":""q1"",""Q1"":""q2"",""Q2"":""q3"",""Q3"":""q4"",""Q4"":""q5"",""Q5"":""q6"",""Q6"":""q7"",""Q7"":""q8"",""Q8"":""q9"",""Q9"":""q10""}","","","",""
